File: images/SEM_EDX_20220411/W04_Detail5/W04_Detail5_line_scans.csv
Abstand (µm),Decimals,Al Kα1,Ti Kα1,Nb Lα1,Ta Lα1,
0,0,100,235,26,8,
0,103235321191926,103,251,18,7,
0,206470642383852,110,227,20,11,
0,309705963575779,90,250,24,7,
0,412941284767705,100,237,15,6,
0,516176605959632,110,235,19,8,
0,619411927151558,97,218,21,3,
0,722647248343484,103,225,20,6,
0,82588256953541,104,242,20,1,
0,929117890727336,111,263,22,10,
1,03235321191926,102,215,20,5,
1,13558853311119,105,241,20,5,
1,23882385430312,95,227,14,6,
1,34205917549504,89,269,18,10,
1,44529449668697,115,238,13,9,
1,54852981787889,105,252,19,5,
1,65176513907082,106,257,20,12,
1,75500046026275,105,237,22,7,
1,85823578145467,97,261,19,13,
1,9614711026466,109,245,19,5,
2,06470642383852,101,229,12,10,
2,16794174503045,99,250,11,2,
2,27117706622238,101,250,19,7,
2,3744123874143,114,240,12,13,
2,47764770860623,113,218,10,9,
2,58088302979816,107,232,16,11,
2,68411835099008,93,235,17,11,
2,78735367218201,100,213,17,6,
2,89058899337394,109,246,28,8,
2,99382431456586,104,201,21,8,
3,09705963575779,101,240,16,9,
3,20029495694971,89,263,16,2,
3,30353027814164,115,247,17,10,
3,40676559933357,86,211,25,9,
3,51000092052549,96,259,25,8,
3,61323624171742,88,220,17,10,
3,71647156290935,102,231,21,7,
3,81970688410127,119,244,21,10,
3,9229422052932,96,235,17,6,
4,02617752648513,78,223,16,14,
4,12941284767705,96,245,16,10,
4,23264816886898,88,216,21,8,
4,3358834900609,94,243,18,13,
4,43911881125283,87,230,19,6,
4,54235413244476,123,250,20,9,
4,64558945363668,113,217,21,8,
4,74882477482861,104,240,26,9,
4,85206009602053,99,215,21,12,
4,95529541721246,95,248,24,7,
5,05853073840439,88,234,15,12,
5,16176605959631,98,229,16,6,
5,26500138078824,94,227,21,8,
5,36823670198017,119,227,19,8,
5,47147202317209,110,256,15,6,
5,57470734436402,106,241,15,12,
5,67794266555595,108,210,13,11,
5,78117798674787,116,233,20,3,
5,8844133079398,118,229,23,4,
5,98764862913172,109,241,20,7,
6,09088395032365,107,240,17,5,
6,19411927151558,125,210,17,10,
6,2973545927075,112,264,20,7,
6,40058991389943,107,241,26,5,
6,50382523509135,105,229,14,12,
6,60706055628328,114,226,21,10,
6,71029587747521,115,203,14,8,
6,81353119866713,127,229,19,17,
6,91676651985906,93,226,18,7,
7,02000184105099,125,245,21,16,
7,12323716224291,109,234,17,12,
7,22647248343484,118,219,16,5,
7,32970780462677,113,228,25,12,
7,43294312581869,127,223,14,8,
7,53617844701062,112,222,14,16,
7,63941376820255,98,229,20,12,
7,74264908939447,108,215,26,11,
7,8458844105864,126,232,21,12,
7,94911973177832,99,245,26,11,
8,05235505297025,96,217,20,9,
8,15559037416218,130,224,25,11,
8,2588256953541,95,219,16,7,
8,36206101654603,98,233,11,5,
8,46529633773796,96,255,18,13,
8,56853165892988,121,216,18,6,
8,67176698012181,108,223,14,5,
8,77500230131374,119,197,19,8,
8,87823762250566,108,230,27,10,
8,98147294369759,117,243,20,8,
9,08470826488951,91,248,17,6,
9,18794358608144,96,246,19,12,
9,29117890727336,111,243,20,4,
9,39441422846529,112,242,13,13,
9,49764954965722,107,228,15,6,
9,60088487084914,102,225,15,6,
9,70412019204107,119,261,16,12,
9,807355513233,104,241,23,8,
9,91059083442492,110,224,10,13,
10,0138261556168,119,247,13,13,
10,1170614768088,108,220,26,4,
10,2202967980007,117,211,26,12,
10,3235321191926,97,225,11,13,
10,4267674403846,125,238,24,13,
10,5300027615765,107,245,17,12,
10,6332380827684,112,221,23,8,
10,7364734039603,109,245,26,9,
10,8397087251523,122,235,15,9,
10,9429440463442,121,230,18,7,
11,0461793675361,129,199,11,8,
11,149414688728,116,243,22,10,
11,25265000992,101,237,21,6,
11,3558853311119,108,231,23,11,
11,4591206523038,117,246,17,6,
11,5623559734957,112,212,12,7,
11,6655912946877,122,214,21,12,
11,7688266158796,105,213,20,8,
11,8720619370715,114,242,20,7,
11,9752972582634,134,231,21,7,
12,0785325794554,133,192,19,12,
12,1817679006473,111,230,12,6,
12,2850032218392,127,228,11,7,
12,3882385430312,97,250,16,11,
12,4914738642231,133,254,19,11,
12,594709185415,114,245,19,5,
12,6979445066069,103,217,27,8,
12,8011798277989,118,255,16,12,
12,9044151489908,108,251,25,12,
13,0076504701827,105,208,18,9,
13,1108857913746,95,240,15,7,
13,2141211125666,120,218,14,9,
13,3173564337585,93,234,22,12,
13,4205917549504,101,251,18,9,
13,5238270761423,104,233,21,8,
13,6270623973343,96,239,23,6,
13,7302977185262,127,236,11,12,
13,8335330397181,94,224,19,8,
13,93676836091,88,244,15,9,
14,040003682102,94,237,13,8,
14,1432390032939,84,235,19,10,
14,2464743244858,96,222,16,11,
14,3497096456778,107,227,13,15,
14,4529449668697,88,241,19,10,
14,5561802880616,105,227,10,15,
14,6594156092535,106,271,19,13,
14,7626509304455,114,219,13,11,
14,8658862516374,102,220,19,12,
14,9691215728293,92,230,16,11,
15,0723568940212,100,240,8,9,
15,1755922152132,94,218,16,5,
15,2788275364051,104,196,15,10,
15,382062857597,104,232,22,11,
15,4852981787889,106,237,26,11,
15,5885334999809,103,222,17,5,
15,6917688211728,123,221,19,10,
15,7950041423647,130,227,11,10,
15,8982394635566,120,241,10,18,
16,0014747847486,116,235,18,16,
16,1047101059405,97,237,13,19,
16,2079454271324,99,253,15,6,
16,3111807483244,106,239,17,15,
16,4144160695163,104,221,19,15,
16,5176513907082,111,225,21,14,
16,6208867119001,118,209,18,14,
16,7241220330921,99,210,28,7,
16,827357354284,109,225,19,11,
16,9305926754759,99,216,15,15,
17,0338279966678,108,216,12,13,
17,1370633178598,111,224,11,16,
17,2402986390517,118,233,17,12,
17,3435339602436,109,230,26,11,
17,4467692814355,109,242,14,16,
17,5500046026275,97,228,21,7,
17,6532399238194,84,225,20,16,
17,7564752450113,105,232,17,12,
17,8597105662032,97,215,16,13,
17,9629458873952,101,227,13,19,
18,0661812085871,108,218,20,11,
18,169416529779,94,216,17,16,
18,272651850971,97,242,15,16,
18,3758871721629,120,221,16,14,
18,4791224933548,90,208,16,18,
18,5823578145467,113,215,23,16,
18,6855931357387,93,178,19,15,
18,7888284569306,93,244,10,15,
18,8920637781225,110,217,20,15,
18,9952990993144,92,227,12,20,
19,0985344205064,85,246,23,18,
19,2017697416983,95,249,19,10,
19,3050050628902,113,228,19,16,
19,4082403840821,113,227,23,14,
19,5114757052741,106,243,13,19,
19,614711026466,114,210,19,18,
19,7179463476579,117,216,13,15,
19,8211816688498,111,214,19,15,
19,9244169900418,108,216,13,15,
20,0276523112337,116,233,16,20,
20,1308876324256,107,220,18,10,
20,2341229536176,118,222,22,14,
20,3373582748095,123,230,25,16,
20,4405935960014,100,206,11,16,
20,5438289171933,104,220,14,14,
20,6470642383853,112,251,21,23,
20,7502995595772,113,220,17,24,
20,8535348807691,113,226,27,13,
20,956770201961,96,201,16,25,
21,060005523153,100,176,13,16,
21,1632408443449,104,191,16,9,
21,2664761655368,100,210,20,13,
21,3697114867287,92,235,11,21,
21,4729468079207,98,214,15,18,
21,5761821291126,76,248,20,16,
21,6794174503045,100,202,17,12,
21,7826527714964,98,226,18,20,
21,8858880926884,97,218,18,16,
21,9891234138803,89,216,14,23,
22,0923587350722,92,230,22,14,
22,1955940562641,87,235,11,16,
22,2988293774561,81,195,10,17,
22,402064698648,83,193,16,15,
22,5053000198399,103,232,12,15,
22,6085353410319,89,199,23,12,
22,7117706622238,70,208,11,18,
22,8150059834157,93,202,14,20,
22,9182413046076,96,212,14,18,
23,0214766257996,96,190,16,20,
23,1247119469915,109,204,17,13,
23,2279472681834,103,213,24,19,
23,3311825893753,87,207,15,19,
23,4344179105673,91,199,14,21,
23,5376532317592,85,199,16,23,
23,6408885529511,113,191,15,18,
23,744123874143,101,205,12,22,
23,847359195335,117,209,14,14,
23,9505945165269,111,200,19,21,
24,0538298377188,116,216,10,15,
24,1570651589108,116,233,16,22,
24,2603004801027,87,185,13,17,
24,3635358012946,106,197,11,16,
24,4667711224865,125,212,14,17,
24,5700064436785,93,210,10,25,
24,6732417648704,99,198,20,17,
24,7764770860623,124,192,12,14,
24,8797124072542,98,229,20,15,
24,9829477284462,118,196,20,17,
25,0861830496381,104,197,14,20,
25,18941837083,115,187,8,10,
25,2926536920219,97,210,14,17,
25,3958890132139,89,196,8,14,
25,4991243344058,115,209,15,23,
25,6023596555977,95,207,17,20,
25,7055949767896,122,207,14,17,
25,8088302979816,121,210,18,23,
25,9120656191735,109,203,14,26,
26,0153009403654,136,198,16,18,
26,1185362615573,117,224,15,21,
26,2217715827493,102,209,23,18,
26,3250069039412,117,184,22,20,
26,4282422251331,129,208,15,17,
26,531477546325,104,184,21,20,
26,634712867517,109,190,20,24,
26,7379481887089,122,196,15,21,
26,8411835099008,110,209,20,28,
26,9444188310928,116,195,16,17,
27,0476541522847,108,207,11,22,
27,1508894734766,114,211,16,21,
27,2541247946685,114,219,12,24,
27,3573601158605,126,215,22,17,
27,4605954370524,115,214,22,23,
27,5638307582443,120,215,17,16,
27,6670660794362,115,196,15,21,
27,7703014006282,125,206,16,18,
27,8735367218201,117,189,20,20,
27,976772043012,124,207,20,28,
28,0800073642039,122,225,25,29,
28,1832426853959,120,190,16,16,
28,2864780065878,118,215,21,17,
28,3897133277797,109,206,21,20,
28,4929486489716,126,242,15,21,
28,5961839701636,130,219,12,12,
28,6994192913555,122,222,18,28,
28,8026546125474,124,221,20,18,
28,9058899337394,124,242,18,22,
29,0091252549313,114,202,15,22,
29,1123605761232,123,228,24,12,
29,2155958973151,138,226,15,20,
29,3188312185071,119,184,28,16,
29,422066539699,116,229,19,23,
29,5253018608909,114,246,24,7,
29,6285371820828,129,218,21,13,
29,7317725032748,131,207,29,13,
29,8350078244667,125,237,26,14,
29,9382431456586,119,229,18,16,
30,0414784668505,125,229,30,17,
30,1447137880425,137,219,29,16,
30,2479491092344,120,229,23,11,
30,3511844304263,150,264,25,11,
30,4544197516183,118,217,15,12,
30,5576550728102,121,222,26,15,
30,6608903940021,107,244,29,15,
30,764125715194,133,227,20,13,
30,867361036386,128,218,18,11,
30,9705963575779,146,238,23,11,
31,0738316787698,138,214,27,10,
31,1770669999617,120,237,14,16,
31,2803023211537,136,232,22,24,
31,3835376423456,135,222,22,14,
31,4867729635375,125,211,17,13,
31,5900082847294,136,222,21,13,
31,6932436059214,133,239,20,11,
31,7964789271133,150,252,24,13,
31,8997142483052,125,213,16,13,
32,0029495694971,142,245,15,15,
32,1061848906891,144,265,26,17,
32,209420211881,147,243,23,11,
32,3126555330729,122,219,27,13,
32,4158908542649,125,244,26,15,
32,5191261754568,127,221,26,14,
32,6223614966487,136,238,20,10,
32,7255968178406,140,249,26,8,
32,8288321390325,122,240,18,7,
32,9320674602245,128,234,23,12,
33,0353027814164,127,245,21,12,
33,1385381026083,123,258,20,8,
33,2417734238003,118,263,21,8,
33,3450087449922,116,247,17,8,
33,4482440661841,127,242,17,4,
33,551479387376,139,235,29,19,
33,654714708568,118,241,22,15,
33,7579500297599,133,254,16,9,
33,8611853509518,105,251,23,10,
33,9644206721438,127,248,31,12,
34,0676559933357,128,253,19,14,
34,1708913145276,141,238,20,7,
34,2741266357195,125,271,29,10,
34,3773619569115,123,250,28,8,
34,4805972781034,134,246,29,8,
34,5838325992953,133,233,23,6,
34,6870679204872,128,228,20,9,
34,7903032416792,118,254,19,4,
34,8935385628711,128,240,16,4,
34,996773884063,139,287,23,14,
35,1000092052549,116,248,15,3,
35,2032445264469,142,231,19,9,
35,3064798476388,122,223,29,4,
35,4097151688307,138,269,18,8,
35,5129504900226,133,245,30,5,
35,6161858112146,126,245,20,10,
35,7194211324065,134,239,20,13,
35,8226564535984,131,242,20,6,
35,9258917747904,121,257,24,7,
36,0291270959823,140,240,17,5,
36,1323624171742,124,278,20,4,
36,2355977383661,134,253,28,8,
36,338833059558,141,269,19,7,
36,44206838075,145,269,20,8,
36,5453037019419,135,251,19,6,
36,6485390231338,143,255,18,5,
36,7517743443258,119,239,17,7,
36,8550096655177,131,258,20,5,
36,9582449867096,149,243,16,4,
37,0614803079015,137,234,19,6,
37,1647156290935,135,234,21,4,
37,2679509502854,159,244,26,6,
37,3711862714773,122,244,30,9,
37,4744215926692,120,256,21,7,
37,5776569138612,133,229,21,5,
37,6808922350531,126,247,23,7,
37,784127556245,142,255,19,5,
37,8873628774369,126,266,20,6,
37,9905981986289,135,233,15,10,
38,0938335198208,115,253,25,3,
38,1970688410127,125,260,15,5,
38,3003041622047,116,244,15,2,
38,4035394833966,126,232,21,5,
38,5067748045885,125,231,17,3,
38,6100101257804,135,237,19,7,
38,7132454469724,114,239,22,10,
38,8164807681643,119,259,21,1,
38,9197160893562,110,243,17,10,
39,0229514105481,130,233,16,4,
39,1261867317401,110,248,18,6,
39,229422052932,117,269,21,6,
39,3326573741239,136,239,22,5,
39,4358926953159,134,256,17,2,
39,5391280165078,128,254,27,5,
39,6423633376997,111,250,19,11,
39,7455986588916,118,252,16,2,
39,8488339800835,123,246,27,4,
39,9520693012755,111,241,17,10,
40,0553046224674,123,225,24,8,
40,1585399436593,108,226,18,9,
40,2617752648513,108,244,18,11,
40,3650105860432,125,240,26,5,
40,4682459072351,132,263,13,5,
40,571481228427,123,219,22,5,
40,6747165496189,111,254,16,6,
40,7779518708109,119,230,16,7,
40,8811871920028,135,239,24,11,
40,9844225131947,119,224,15,4,
41,0876578343867,125,259,12,11,
41,1908931555786,108,250,21,8,
41,2941284767705,126,270,20,6,
41,3973637979624,121,236,25,6,
41,5005991191544,114,251,18,12,
41,6038344403463,108,215,17,10,
41,7070697615382,138,241,26,8,
41,8103050827301,130,250,14,6,
41,9135404039221,140,219,22,7,
42,016775725114,114,225,21,9,
42,1200110463059,108,256,16,6,
42,2232463674979,150,272,17,8,
42,3264816886898,112,231,19,2,
42,4297170098817,110,217,22,4,
42,5329523310736,121,257,17,5,
42,6361876522655,109,240,18,10,
42,7394229734575,129,256,13,4,
42,8426582946494,114,242,20,9,
42,9458936158413,121,248,20,8,
43,0491289370333,108,261,19,11,
43,1523642582252,116,246,19,6,
43,2555995794171,120,256,20,4,
43,358834900609,118,218,21,7,
43,462070221801,123,251,25,5,
43,5653055429929,104,246,23,3,
43,6685408641848,104,214,20,4,
43,7717761853767,120,228,25,4,
43,8750115065687,109,225,20,7,
43,9782468277606,111,235,20,7,
44,0814821489525,130,245,18,7,
44,1847174701444,108,254,18,8,
44,2879527913364,130,230,20,11,
44,3911881125283,120,227,22,9,
44,4944234337202,119,242,15,4,
44,5976587549122,131,264,21,8,
44,7008940761041,115,285,25,5,
44,804129397296,114,219,20,11,
44,9073647184879,111,227,21,6,
45,0106000396799,120,248,27,4,
45,1138353608718,130,227,22,7,
45,2170706820637,104,251,20,11,
45,3203060032556,122,277,20,10,
45,4235413244476,106,243,19,7,
45,5267766456395,99,225,22,4,
45,6300119668314,125,267,24,4,
45,7332472880233,135,249,23,7,
45,8364826092153,116,236,28,4,
45,9397179304072,123,268,19,3,
46,0429532515991,87,233,10,8,
46,146188572791,113,287,21,6,
46,249423893983,109,239,22,8,
46,3526592151749,116,248,23,3,
46,4558945363668,115,255,18,9,
46,5591298575588,131,262,12,3,
46,6623651787507,114,228,24,5,
46,7656004999426,121,247,20,4,
46,8688358211345,117,233,18,3,
46,9720711423265,117,246,14,6,
47,0753064635184,126,258,20,11,
47,1785417847103,116,270,21,6,
47,2817771059022,129,213,22,6,
47,3850124270942,130,260,22,10,
47,4882477482861,137,232,19,10,
47,591483069478,132,244,22,9,
47,6947183906699,128,219,29,5,
47,7979537118619,133,220,21,6,
47,9011890330538,139,252,20,6,
48,0044243542457,131,247,22,8,
48,1076596754376,124,255,26,4,
48,2108949966296,122,264,25,5,
48,3141303178215,129,240,17,12,
48,4173656390134,105,260,17,3,
48,5206009602054,122,272,17,5,
48,6238362813973,114,234,21,8,
48,7270716025892,116,271,20,3,
48,8303069237811,130,284,23,5,
48,9335422449731,133,266,27,10,
49,036777566165,133,236,15,4,
49,1400128873569,133,232,22,4,
49,2432482085488,134,252,18,7,
49,3464835297408,131,241,15,8,
49,4497188509327,133,223,21,7,
49,5529541721246,130,232,30,5,
49,6561894933165,126,254,23,7,
49,7594248145085,140,242,14,11,
49,8626601357004,126,247,19,6,
49,9658954568923,122,229,23,9,
50,0691307780842,131,216,24,6,
50,1723660992762,144,244,23,6,
50,2756014204681,104,228,18,4,
50,37883674166,137,224,10,1,
50,4820720628519,118,255,26,8,
50,5853073840439,121,259,16,4,
50,6885427052358,151,251,26,7,
50,7917780264277,127,241,18,14,
50,8950133476197,125,273,13,6,
50,9982486688116,124,245,22,4,
51,1014839900035,138,240,18,4,
51,2047193111954,106,262,25,5,
51,3079546323874,111,241,24,7,
51,4111899535793,116,254,22,7,
51,5144252747712,109,221,15,5,